Folder: MAITENA-platform_Modules-I-II_CIC/02-Raw_data/LFMO

File: IMS_LMFO_A2.uxd
;content of C:\DATA XRD\IMS_LMFO_220510_C4_144.raw - (Diffrac Plus V4 file)
_FILEVERSION = 3
_SAMPLE = IMS_LMFO_220510_C4_144
_+SAMPLE
_USER = Lab Manager
_GONIOMETER_CODE = 20
_STAGE_CODE = 7
; Goniometer : D8 theta/2theta, stage : Chi drive
_SAMPLE_CHANGER_CODE = 0
_ATTACHMENTS_CODE = 0
_GONIOMETER_RADIUS = 217.5
_FIXED_DIVSLIT = 2
_MONOCHROMATOR = 0
; Incident beam monochromator : None
_SOLLER_SLITS_2 = 2
_BETA_FILTER = N
_ANALYZER_CODE = 0
; Received beam analyzer : None
_DATEMEASURED = 17-May-2022 10:33:12
_RUNTIME = 1816.651
_WL_UNIT = A
_WL1 = 1.5406
_WL2 = 1.54439
_WL3 = 1.39222
_WLRATIO = 0.5
_ANODE = Cu
_V4_INF_USER = Lab Manager
_V4_INF_SAMPLEID = IMS_LMFO_220510_C4_144
_V4_INF_CREATOR = BrmlToV4Converter
_V4_INF_CREATOR_VERSION = 7.5.0.0

; Data for range 1
_DRIVE = COUPLED
_STEPTIME = 86.4
_STEPSIZE = 0.01973
_STEPMODE = C
_START = 5
_THETA = 2.5
_2THETA = 5
_PHI = 101.109
_DETECTORSLIT = out
_TIMESTARTED = 0
_ROTATION_SPEED = 15
_KV = 40
_MA = 40
_RANGE_WL = 1.5406
_3DPLANE = 0
_V4_PSD2THETA = 9999
_V4_PSDCHANNEL1 = 0
_V4_PSDAPERTURE = 3.788144
_V4_PSDTYPE = 5
_V4_PSDFIXED = 0
_V4_COUNTERS_MASK = 1
_V4_DRIVES_MASK = 0
_V4_ENCODERS_MASK = 0
_COUNTS = 1
; Cnt2_D1
341
328
331
248
261
260
231
216
217
216
197
207
171
180
162
149
131
141
136
124
131
96
101
117
100
96
84
85
97
83
83
77
76
87
89
82
64
66
66
73
49
56
70
63
50
42
61
60
60
50
59
83
140
1843
96
58
41
37
42
39
38
34
31
48
33
34
27
27
24
28
37
32
24
35
36
27
35
31
22
28
24
16
35
27
38
23
23
30
34
33
27
24
44
28
32
37
36
49
38
79
40
34
31
31
32
31
21
38
35
31
34
29
30
35
37
41
46
53
84
86
418
241
56
41
34
47
44
360
45
23
25
21
21
17
25
29
25
17
23
32
26
31
38
35
26
45
33
42
50
70
207
556
92
46
30
33
23
15
23
31
18
28
25
27
31
40
29
155
43
23
23
24
29
16
28
23
27
21
28
23
26
27
13
18
20
21
17
31
10
28
33
25
28
30
17
22
15
27
26
23
20
21
32
36
41
315
208
44
27
23
33
19
22
19
21
21
25
13
19
21
36
32
29
33
46
53
50
264
427
87
30
29
15
31
27
20
30
31
36
34
293
86
38
36
30
18
13
23
13
24
23
18
20
19
21
18
26
21
16
24
20
18
14
16
18
12
17
19
17
12
23
23
19
132
28
25
27
143
44
30
16
18
24
14
20
20
16
17
9.000000
27
18
23
78
177

File: IMS_LMFO_A4.uxd
;content of C:\DATA XRD\IMS_LMFO_220510_A4_137.raw - (Diffrac Plus V4 file)
_FILEVERSION = 3
_SAMPLE = IMS_LMFO_220510_A4_137
_+SAMPLE
_USER = Lab Manager
_GONIOMETER_CODE = 20
_STAGE_CODE = 7
; Goniometer : D8 theta/2theta, stage : Chi drive
_SAMPLE_CHANGER_CODE = 0
_ATTACHMENTS_CODE = 0
_GONIOMETER_RADIUS = 217.5
_FIXED_DIVSLIT = 2
_MONOCHROMATOR = 0
; Incident beam monochromator : None
_SOLLER_SLITS_2 = 2
_BETA_FILTER = N
_ANALYZER_CODE = 0
; Received beam analyzer : None
_DATEMEASURED = 16-May-2022 16:37:35
_RUNTIME = 1816.246
_WL_UNIT = A
_WL1 = 1.5406
_WL2 = 1.54439
_WL3 = 1.39222
_WLRATIO = 0.5
_ANODE = Cu
_V4_INF_USER = Lab Manager
_V4_INF_SAMPLEID = IMS_LMFO_220510_A4_137
_V4_INF_CREATOR = BrmlToV4Converter
_V4_INF_CREATOR_VERSION = 7.5.0.0

; Data for range 1
_DRIVE = COUPLED
_STEPTIME = 86.4
_STEPSIZE = 0.01973
_STEPMODE = C
_START = 5
_THETA = 2.5
_2THETA = 5
_PHI = 60.5078
_DETECTORSLIT = out
_TIMESTARTED = 0
_ROTATION_SPEED = 15
_KV = 40
_MA = 40
_RANGE_WL = 1.5406
_3DPLANE = 0
_V4_PSD2THETA = 9999
_V4_PSDCHANNEL1 = 0
_V4_PSDAPERTURE = 3.788144
_V4_PSDTYPE = 5
_V4_PSDFIXED = 0
_V4_COUNTERS_MASK = 1
_V4_DRIVES_MASK = 0
_V4_ENCODERS_MASK = 0
_COUNTS = 1
; Cnt2_D1
340
329
279
284
280
239
218
213
180
176
185
162
169
156
124
131
124
114
116
78
99
103
83
83
76
71
80
72
79
70
69
74
70
52
57
65
50
51
53
56
49
39
57
49
41
48
49
28
48
46
36
66
125
5588
191
73
39
40
42
42
34
51
29
22
43
29
31
26
20
31
27
22
28
20
24
29
25
28
26
27
30
27
16
25
23
25
25
28
17
21
20
31
28
17
28
27
29
41
40
38
46
22
24
36
18
26
24
26
30
32
28
25
45
28
39
54
65
64
67
98
242
733
113
31
34
39
57
471
71
25
24
18
21
24
18
20
25
29
15
22
16
37
27
33
27
29
21
34
35
59
144
938
204
58
37
42
32
22
20
24
29
13
21
24
28
30
33
192
68
28
24
25
21
12
22
11
23
16
18
27
22
22
25
13
15
15
22
26
18
24
13
16
15
21
22
23
19
18
18
24
21
32
32
31
40
126
313
83
34
23
17
14
21
19
18
14
16
8.000000
26
25
36
42
47
49
61
58
64
138
486
178
54
25
26
31
13
20
19
17
18
35
159
125
58
29
22
16
22
10
14
17
11
16
14
14
13
19
13
14
19
15
13
16
12
25
16
20
12
24
18
26
26
26
22
115
63
37
31
128
59
35
22
14
12
16
17
13
18
23
18
18
18
17
26
103

File: IMS_LMFO_B2.uxd
;content of C:\DATA XRD\IMS_LMFO_220510_B2_139.raw - (Diffrac Plus V4 file)
_FILEVERSION = 3
_SAMPLE = IMS_LMFO_220510_B2_139
_+SAMPLE
_USER = Lab Manager
_GONIOMETER_CODE = 20
_STAGE_CODE = 7
; Goniometer : D8 theta/2theta, stage : Chi drive
_SAMPLE_CHANGER_CODE = 0
_ATTACHMENTS_CODE = 0
_GONIOMETER_RADIUS = 217.5
_FIXED_DIVSLIT = 2
_MONOCHROMATOR = 0
; Incident beam monochromator : None
_SOLLER_SLITS_2 = 2
_BETA_FILTER = N
_ANALYZER_CODE = 0
; Received beam analyzer : None
_DATEMEASURED = 16-May-2022 17:40:12
_RUNTIME = 1816.495
_WL_UNIT = A
_WL1 = 1.5406
_WL2 = 1.54439
_WL3 = 1.39222
_WLRATIO = 0.5
_ANODE = Cu
_V4_INF_USER = Lab Manager
_V4_INF_SAMPLEID = IMS_LMFO_220510_B2_139
_V4_INF_CREATOR = BrmlToV4Converter
_V4_INF_CREATOR_VERSION = 7.5.0.0

; Data for range 1
_DRIVE = COUPLED
_STEPTIME = 86.4
_STEPSIZE = 0.01973
_STEPMODE = C
_START = 5
_THETA = 2.5
_2THETA = 5
_PHI = 87.8047
_DETECTORSLIT = out
_TIMESTARTED = 0
_ROTATION_SPEED = 15
_KV = 40
_MA = 40
_RANGE_WL = 1.5406
_3DPLANE = 0
_V4_PSD2THETA = 9999
_V4_PSDCHANNEL1 = 0
_V4_PSDAPERTURE = 3.788144
_V4_PSDTYPE = 5
_V4_PSDFIXED = 0
_V4_COUNTERS_MASK = 1
_V4_DRIVES_MASK = 0
_V4_ENCODERS_MASK = 0
_COUNTS = 1
; Cnt2_D1
337
314
307
280
287
242
255
264
173
185
171
182
159
140
122
106
107
117
118
97
96
106
63
83
74
86
83
93
83
70
56
53
55
56
65
67
61
69
66
58
54
49
46
52
46
48
55
54
32
52
42
65
101
6960
153
48
44
37
46
39
39
38
33
39
36
33
28
28
32
24
30
29
40
31
28
25
33
30
30
15
23
30
23
29
25
18
21
24
39
27
32
29
23
37
45
29
33
38
43
41
39
41
27
25
26
25
26
36
37
36
30
29
30
46
29
43
37
36
66
81
140
599
62
44
30
45
37
667
44
32
25
25
25
26
26
29
34
22
29
38
24
29
27
30
31
24
46
38
50
55
91
887
118
40
35
34
23
27
30
28
35
23
23
32
36
27
32
293
48
33
25
28
13
14
27
25
19
19
24
24
12
27
19
15
24
18
13
13
25
28
18
26
26
25
24
17
23
18
26
30
28
25
17
34
36
84
231
67
28
27
17
24
18
21
11
23
18
20
13
24
19
30
41
38
34
45
68
84
504
111
37
32
38
29
31
19
27
20
29
32
105
107
41
34
26
17
20
19
16
15
21
15
19
18
22
18
19
19
17
18
15
36
22
24
18
29
22
15
19
25
30
24
30
193
47
35
25
228
52
26
27
22
13
14
20
17
17
14
22
17
19
27
31
208

File: IMS_LMFO_B4.uxd
;content of C:\DATA XRD\IMS_LMFO_220510_B4_140.raw - (Diffrac Plus V4 file)
_FILEVERSION = 3
_SAMPLE = IMS_LMFO_220510_B4_140
_+SAMPLE
_USER = Lab Manager
_GONIOMETER_CODE = 20
_STAGE_CODE = 7
; Goniometer : D8 theta/2theta, stage : Chi drive
_SAMPLE_CHANGER_CODE = 0
_ATTACHMENTS_CODE = 0
_GONIOMETER_RADIUS = 217.5
_FIXED_DIVSLIT = 2
_MONOCHROMATOR = 0
; Incident beam monochromator : None
_SOLLER_SLITS_2 = 2
_BETA_FILTER = N
_ANALYZER_CODE = 0
; Received beam analyzer : None
_DATEMEASURED = 17-May-2022 08:28:03
_RUNTIME = 1825.401
_WL_UNIT = A
_WL1 = 1.5406
_WL2 = 1.54439
_WL3 = 1.39222
_WLRATIO = 0.5
_ANODE = Cu
_V4_INF_USER = Lab Manager
_V4_INF_SAMPLEID = IMS_LMFO_220510_B4_140
_V4_INF_CREATOR = BrmlToV4Converter
_V4_INF_CREATOR_VERSION = 7.5.0.0

; Data for range 1
_DRIVE = COUPLED
_STEPTIME = 86.4
_STEPSIZE = 0.01973
_STEPMODE = C
_START = 5
_THETA = 2.5
_2THETA = 5
_PHI = 179.609
_DETECTORSLIT = out
_TIMESTARTED = 0
_ROTATION_SPEED = 15
_KV = 40
_MA = 40
_RANGE_WL = 1.5406
_3DPLANE = 0
_V4_PSD2THETA = 9999
_V4_PSDCHANNEL1 = 0
_V4_PSDAPERTURE = 3.788144
_V4_PSDTYPE = 5
_V4_PSDFIXED = 0
_V4_COUNTERS_MASK = 1
_V4_DRIVES_MASK = 0
_V4_ENCODERS_MASK = 0
_COUNTS = 1
; Cnt2_D1
304
291
266
271
239
232
199
213
201
209
188
151
185
145
153
149
123
128
120
115
113
107
100
104
91
96
89
79
77
76
83
84
74
71
67
68
64
69
51
57
76
56
53
64
50
47
64
54
50
53
54
73
158
4362
67
52
56
53
44
47
45
34
35
40
39
38
32
39
36
38
36
33
25
36
36
29
41
33
30
32
32
25
42
30
31
46
35
50
38
58
36
39
37
54
45
51
39
35
50
62
52
52
47
47
53
45
46
53
43
34
43
46
43
43
49
52
50
43
63
67
184
443
47
38
45
42
73
651
59
33
47
37
41
30
34
39
47
43
37
29
41
42
43
51
45
46
41
58
57
79
122
1088
79
36
47
39
37
43
31
33
34
35
34
40
30
43
51
318
43
36
32
27
20
30
27
22
22
25
31
30
32
29
28
21
28
35
29
32
26
16
43
24
41
30
30
23
31
34
31
28
39
33
32
39
64
120
366
55
24
38
32
35
31
26
33
30
26
32
20
30
23
25
19
25
31
51
71
96
769
70
35
41
39
31
26
20
26
27
27
37
144
148
39
33
30
21
17
32
20
21
23
22
28
22
27
15
20
16
25
32
26
29
19
18
35
25
20
29
25
28
17
25
34
167
49
40
40
198
53
30
22
20
16
21
22
26
35
24
30
23
22
19
48
167

File: IMS_LMFO_C3.uxd
;content of C:\DATA XRD\IMS_LMFO_324.raw - (Diffrac Plus V4 file)
_FILEVERSION = 3
_SAMPLE = IMS_LMFO_323
_+SAMPLE
_USER = Lab Manager
_GONIOMETER_CODE = 20
_STAGE_CODE = 7
; Goniometer : D8 theta/2theta, stage : Chi drive
_SAMPLE_CHANGER_CODE = 0
_ATTACHMENTS_CODE = 0
_GONIOMETER_RADIUS = 217.5
_FIXED_DIVSLIT = 2
_MONOCHROMATOR = 0
; Incident beam monochromator : None
_SOLLER_SLITS_2 = 2
_BETA_FILTER = N
_ANALYZER_CODE = 0
; Received beam analyzer : None
_DATEMEASURED = 21-Jul-2022 16:59:25
_RUNTIME = 1821.183
_WL_UNIT = A
_WL1 = 1.5406
_WL2 = 1.54439
_WL3 = 1.39222
_WLRATIO = 0.5
_ANODE = Cu
_V4_INF_USER = Lab Manager
_V4_INF_SAMPLEID = IMS_LMFO_323
_V4_INF_CREATOR = BrmlToV4Converter
_V4_INF_CREATOR_VERSION = 7.5.0.0

; Data for range 1
_DRIVE = COUPLED
_STEPTIME = 92.544
_STEPSIZE = 0.01973
_STEPMODE = C
_START = 10
_THETA = 5
_2THETA = 10
_PHI = 37.9922
_DETECTORSLIT = out
_TIMESTARTED = 0
_ROTATION_SPEED = 15
_KV = 40
_MA = 40
_RANGE_WL = 1.5406
_3DPLANE = 0
_V4_PSD2THETA = 9999
_V4_PSDCHANNEL1 = 0
_V4_PSDAPERTURE = 3.788144
_V4_PSDTYPE = 5
_V4_PSDFIXED = 0
_V4_COUNTERS_MASK = 1
_V4_DRIVES_MASK = 0
_V4_ENCODERS_MASK = 0
_COUNTS = 1
; Cnt2_D1
83
82
94
74
87
69
79
85
68
65
66
59
68
66
50
56
60
65
50
59
42
42
35
55
44
31
45
39
45
47
35
31
34
42
65
138
232
2097
54
33
39
35
34
26
25
20
34
22
19
25
21
36
27
19
25
18
19
22
21
26
18
26
20
18
28
18
24
16
26
23
21
21
23
19
26
19
21
24
21
16
17
20
16
20
14
18
27
62
21
18
17
16
17
13
10
8.000000
16
13
10
16
13
14
10
20
18
15
15
30
97
190
1835
74
19
11
25
32
52
352
21
19
11
9.000000
14
11
10
14
7.000000
10
13
9.000000
9.000000
13
6.000000
6.000000
19
9.000000
10
10
17
9.000000
29
108
214
1290
47
17
12
10
9.000000
14
7.000000
13
8.000000
13
6.000000
11
10
10
23
32
160
26
10
13
12
2.000000
16
11
12
7.000000
13
15
11
11
12
11
11
14
12
4.000000
13
6.000000
7.000000
7.000000
10
22
13
24
19
13
11
12
7.000000
4.000000
5.000000
12
15
10
12
19
43
79
495
75
15
13
9.000000
5.000000
13
8.000000
12
11
11
14
11
12
12
7.000000
11
16
15
15
20
20
54
131
881
112
24
23
13
12
10
11
14
17
8.000000
7.000000
33
65
384
25
19
11
12
10
8.000000
7.000000
6.000000
9.000000
15
8.000000
8.000000
12
8.000000
7.000000
7.000000
10
6.000000
16
12
12
9.000000
6.000000
10
4.000000
9.000000
4.000000
13
3.000000
9.000000
9.000000
11
17
31
98
37
4.000000
27
74
117
14
13
11
9.000000
8.000000
7.000000
8.000000
11
12
9.000000
11
7.000000
9.000000
16
28
41

File: IMS_LMFO_C4.uxd
;content of C:\DATA XRD\IMS_LMFO_327.raw - (Diffrac Plus V4 file)
_FILEVERSION = 3
_SAMPLE = IMS_LMFO_327
_+SAMPLE
_USER = Lab Manager
_GONIOMETER_CODE = 20
_STAGE_CODE = 7
; Goniometer : D8 theta/2theta, stage : Chi drive
_SAMPLE_CHANGER_CODE = 0
_ATTACHMENTS_CODE = 0
_GONIOMETER_RADIUS = 217.5
_FIXED_DIVSLIT = 2
_MONOCHROMATOR = 0
; Incident beam monochromator : None
_SOLLER_SLITS_2 = 2
_BETA_FILTER = N
_ANALYZER_CODE = 0
; Received beam analyzer : None
_DATEMEASURED = 22-Jul-2022 05:14:08
_RUNTIME = 1821.662
_WL_UNIT = A
_WL1 = 1.5406
_WL2 = 1.54439
_WL3 = 1.39222
_WLRATIO = 0.5
_ANODE = Cu
_V4_INF_USER = Lab Manager
_V4_INF_SAMPLEID = IMS_LMFO_327
_V4_INF_CREATOR = BrmlToV4Converter
_V4_INF_CREATOR_VERSION = 7.5.0.0

; Data for range 1
_DRIVE = COUPLED
_STEPTIME = 92.544
_STEPSIZE = 0.01973
_STEPMODE = C
_START = 10
_THETA = 5
_2THETA = 10
_PHI = 55.9922
_DETECTORSLIT = out
_TIMESTARTED = 0
_ROTATION_SPEED = 15
_KV = 40
_MA = 40
_RANGE_WL = 1.5406
_3DPLANE = 0
_V4_PSD2THETA = 9999
_V4_PSDCHANNEL1 = 0
_V4_PSDAPERTURE = 3.788144
_V4_PSDTYPE = 5
_V4_PSDFIXED = 0
_V4_COUNTERS_MASK = 1
_V4_DRIVES_MASK = 0
_V4_ENCODERS_MASK = 0
_COUNTS = 1
; Cnt2_D1
82
75
100
73
75
67
70
56
70
77
70
62
66
67
61
54
51
48
56
43
39
45
46
41
38
52
34
41
46
45
36
41
42
36
59
72
266
565
45
49
40
34
40
44
25
30
35
30
33
36
25
30
27
31
34
26
24
21
26
18
17
18
27
15
15
24
24
15
18
16
27
19
12
25
20
14
17
16
25
21
22
23
21
20
20
23
22
176
30
13
26
14
16
18
15
14
19
15
17
11
19
14
20
17
17
26
18
22
56
97
4321
49
21
20
17
13
31
675
23
14
15
13
11
16
17
8.000000
9.000000
17
12
15
13
12
9.000000
13
16
11
13
13
15
17
23
60
190
554
41
23
21
17
12
20
9.000000
18
20
10
13
15
12
10
20
19
435
29
13
11
19
13
21
10
13
10
11
10
8.000000
15
10
7.000000
12
12
14
9.000000
13
16
11
12
14
13
20
38
14
7.000000
6.000000
12
9.000000
12
13
11
10
21
13
16
26
55
1263
72
22
15
12
19
9.000000
12
8.000000
16
6.000000
12
14
12
11
14
13
10
12
18
16
24
33
69
1868
108
24
26
13
13
14
11
11
12
8.000000
14
17
43
481
27
18
15
13
17
11
12
13
9.000000
6.000000
4.000000
11
12
9.000000
6.000000
8.000000
9.000000
6.000000
11
12
7.000000
12
16
9.000000
8.000000
15
12
7.000000
8.000000
11
20
8.000000
11
20
168
22
13
24
79
76
15
11
14
14
8.000000
5.000000
10
13
10
8.000000
6.000000
10
12
12
26
31