Folder: MAITENA-platform_Modules-I-II_CIC/02-Raw_data/LFP

File: LFP_b_160C_15min.xy
! Initial file:   O:\a) Research area\01 - Batteries & Supercaps\EES Research LINES\RL2018001 Advanced Cathodes\Results\Maha-Joseba\Automation_paper\XRD\LFP_06_160-15\MI-JO_LFP_221110_06.xy
! Initial format:   1
! WAVE (A):      1.54060     1.54060     1.00000
! REM : data have been multiplied by     1.0000
! X_data : 2 Theta (deg.)
! Y_data : Intensity (arb. units)
!     X         Y
!--------------------------------------------------------------------------------
    10.0000      104.2
    10.2420      104.2
    10.4840      105.2
    10.7261       89.90000
    10.9681       73.50000
    11.2101       84.80000
    11.4521       78.60000
    11.6941       98.00000
    11.9362       57.20000
    12.1782       72.50000
    12.4202       69.40000
    12.6622       80.70000
    12.9042       78.60000
    13.1463       65.40000
    13.3883       63.30000
    13.6303       67.40000
    13.8723       72.50000
    14.1143       71.50000
    14.3564       61.30000
    14.5984       63.30000
    14.8404       43.90000
    15.0824       69.40000
    15.3244       52.10000
    15.5665       58.20000
    15.8085       56.20000
    16.0505       59.20000
    16.2925       61.30000
    16.5345       57.20000
    16.7766       46.00000
    17.0186      149.1
    17.2606      426.9
    17.5026       66.40000
    17.7447       42.90000
    17.9867       44.90000
    18.2287       53.10000
    18.4707       46.00000
    18.7127       29.60000
    18.9548       41.90000
    19.1968       39.80000
    19.4388       52.10000
    19.6808       43.90000
    19.9228       40.80000
    20.1649       49.00000
    20.4069       50.00000
    20.6489      301.3
    20.8909      393.2
    21.1329       63.30000
    21.3750       36.80000
    21.6170       46.00000
    21.8590       46.00000
    22.1010       51.10000
    22.3430       40.80000
    22.5851      124.6
    22.8271      282.9
    23.0691       65.40000
    23.3111       39.80000
    23.5531       31.70000
    23.7952       34.70000
    24.0372      165.4
    24.2792       48.00000
    24.5212       39.80000
    24.7632       47.00000
    25.0053       37.80000
    25.2473       74.60000
    25.4893      592.3
    25.7313      542.3
    25.9733       75.60000
    26.2154       38.80000
    26.4574       42.90000
    26.6994       39.80000
    26.9414       33.70000
    27.1834       34.70000
    27.4255       34.70000
    27.6675       42.90000
    27.9095       33.70000
    28.1515       33.70000
    28.3935       38.80000
    28.6356       41.90000
    28.8776       36.80000
    29.1196       37.80000
    29.3616       55.10000
    29.6036      316.6
    29.8457     1198.9
    30.0877      132.8
    30.3297       57.20000
    30.5717       24.50000
    30.8137       44.90000
    31.0558       37.80000
    31.2978       32.70000
    31.5398       28.60000
    31.7818       31.70000
    32.0238       79.70000
    32.2659      551.5
    32.5079       54.10000
    32.7499       38.80000
    32.9919       32.70000
    33.2340       29.60000
    33.4760       29.60000
    33.7180       32.70000
    33.9600       33.70000
    34.2020       32.70000
    34.4441       48.00000
    34.6861       44.90000
    34.9281       41.90000
    35.1701       67.40000
    35.4121      219.6
    35.6542     1690.2
    35.8962      175.7
    36.1382       64.30000
    36.3802      120.5
    36.6222      536.2
    36.8643       72.50000
    37.1063       42.90000
    37.3483       33.70000
    37.5903       42.90000
    37.8323      177.7
    38.0744      155.2
    38.3164       52.10000
    38.5584       24.50000
    38.8004       26.60000
    39.0424       40.80000
    39.2845      185.9
    39.5265      131.7
    39.7685      450.4
    40.0105      104.2
    40.2525       37.80000
    40.4946       24.50000
    40.7366       22.50000
    40.9786       19.40000
    41.2206       16.30000
    41.4626       21.40000
    41.7047       21.40000
    41.9467       37.80000
    42.1887      252.2
    42.4307       98.00000
    42.6727       33.70000
    42.9148       27.60000
    43.1568       16.30000
    43.3988       18.40000
    43.6408       20.40000
    43.8828       21.40000
    44.1249       24.50000
    44.3669       68.40000
    44.6089       57.20000
    44.8509       50.00000
    45.0929       58.20000
    45.3350       23.50000
    45.5770       21.40000
    45.8190       24.50000
    46.0610       20.40000
    46.3030       30.60000
    46.5451       53.10000
    46.7871       13.30000
    47.0291       11.20000
    47.2711       15.30000
    47.5131       19.40000
    47.7552       23.50000
    47.9972       37.80000
    48.2392       25.50000
    48.4812       26.60000
    48.7233       24.50000
    48.9653       42.90000
    49.2073      153.2
    49.4493       87.80000
    49.6913       43.90000
    49.9334       52.10000
    50.1754      102.1
    50.4174      203.2
    50.6594      149.1
    50.9014       35.70000
    51.1435       16.30000
    51.3855       20.40000
    51.6275       20.40000
    51.8695       29.60000
    52.1115       35.70000
    52.3536      147.1
    52.5956      546.4
    52.8376      199.1
    53.0796       61.30000
    53.3216       38.80000
    53.5637       28.60000
    53.8057       26.60000
    54.0477       27.60000
    54.2897       30.60000
    54.5317       28.60000
    54.7738       58.20000
    55.0158      223.7
    55.2578      102.1
    55.4998      316.6
    55.7418       87.80000
    55.9839       34.70000
    56.2259       36.80000
    56.4679       74.60000
    56.7099      296.2
    56.9519      107.2
    57.1940       40.80000
    57.4360       42.90000
    57.6780       53.10000
    57.9200       28.60000
    58.1620       75.60000
    58.4041      156.3
    58.6461       61.30000
    58.8881       20.40000
    59.1301       27.60000
    59.3721       15.30000
    59.6142       27.60000
    59.8562       16.30000
    60.0982       18.40000
    60.3402       19.40000
    60.5822       18.40000
    60.8243       28.60000
    61.0663       35.70000
    61.3083       48.00000
    61.5503       96.00000
    61.7923      319.6
    62.0344      310.5
    62.2764      200.2
    62.5184       44.90000
    62.7604       22.50000
    63.0025       28.60000
    63.2445       23.50000
    63.4865       17.40000
    63.7285       20.40000
    63.9705       50.00000
    64.2126       37.80000
    64.4546       24.50000
    64.6966       25.50000
    64.9386       18.40000
    65.1806       26.60000
    65.4227       25.50000
    65.6647       29.60000
    65.9067       33.70000
    66.1487       56.20000
    66.3907      109.3
    66.6328       49.00000
    66.8748       24.50000
    67.1168       33.70000
    67.3588       57.20000
    67.6008       72.50000
    67.8429       31.70000
    68.0849       39.80000
    68.3269       55.10000
    68.5689       26.60000
    68.8109       20.40000
    69.0530       29.60000
    69.2950       38.80000
    69.5370       51.10000
    69.7790       36.80000
    70.0210       95.00000
    70.2631      130.7
    70.5051       34.70000
    70.7471       25.50000
    70.9891       29.60000
    71.2311       27.60000
    71.4732       60.30000
    71.7152       43.90000
    71.9572       69.40000
    72.1992      100.1
    72.4412      119.5
    72.6833       47.00000
    72.9253       12.30000
    73.1673       20.40000
    73.4093       27.60000
    73.6513       44.90000
    73.8934       30.60000
    74.1354       33.70000
    74.3774       90.90000
    74.6194       50.00000
    74.8614       30.60000
    75.1035       35.70000
    75.3455       32.70000
    75.5875       37.80000
    75.8295       29.60000
    76.0715       33.70000
    76.3136       19.40000
    76.5556       26.60000
    76.7976       14.30000
    77.0396       15.30000
    77.2816       30.60000
    77.5237       39.80000
    77.7657       50.00000
    78.0077       71.50000
    78.2497       22.50000
    78.4918       20.40000
    78.7338       22.50000
    78.9758       16.30000
    79.2178       13.30000
    79.4598       12.30000
    79.7019       14.30000
    79.9439       25.50000
    80.0070       26.60000

File: LFP_e_180C_15min.xy
! Initial file:   O:\a) Research area\01 - Batteries & Supercaps\EES Research LINES\RL2018001 Advanced Cathodes\Results\Maha-Joseba\Automation_paper\XRD\LFP_05_180-15\MI-JO_LFP_221110_05.xy
! Initial format:   1
! WAVE (A):      1.54060     1.54060     1.00000
! REM : data have been multiplied by     1.0000
! X_data : 2 Theta (deg.)
! Y_data : Intensity (arb. units)
!     X         Y
!--------------------------------------------------------------------------------
    10.0000       84.80000
    10.2420       77.60001
    10.4840       86.80000
    10.7261       88.80000
    10.9681       97.00000
    11.2101       74.60000
    11.4521       75.60000
    11.6941       89.90000
    11.9362       75.60000
    12.1782       83.70000
    12.4202       67.40000
    12.6622       79.70000
    12.9042       73.50000
    13.1463       58.20000
    13.3883       58.20000
    13.6303       63.30000
    13.8723       69.40000
    14.1143       65.40000
    14.3564       62.30000
    14.5984       57.20000
    14.8404       65.40000
    15.0824       65.40000
    15.3244       68.40000
    15.5665       51.10000
    15.8085       68.40000
    16.0505       50.00000
    16.2925       63.30000
    16.5345       50.00000
    16.7766       62.30000
    17.0186      135.8
    17.2606      409.5
    17.5026       55.10000
    17.7447       52.10000
    17.9867       42.90000
    18.2287       54.10000
    18.4707       28.60000
    18.7127       42.90000
    18.9548       44.90000
    19.1968       35.70000
    19.4388       48.00000
    19.6808       47.00000
    19.9228       33.70000
    20.1649       47.00000
    20.4069       51.10000
    20.6489      233.9
    20.8909      479
    21.1329       55.10000
    21.3750       53.10000
    21.6170       44.90000
    21.8590       38.80000
    22.1010       40.80000
    22.3430       48.00000
    22.5851      132.8
    22.8271      259.4
    23.0691       37.80000
    23.3111       40.80000
    23.5531       36.80000
    23.7952       51.10000
    24.0372      152.2
    24.2792       50.00000
    24.5212       41.90000
    24.7632       44.90000
    25.0053       48.00000
    25.2473       66.39999
    25.4893      586.2
    25.7313      587.2
    25.9733       77.60001
    26.2154       40.80000
    26.4574       29.60000
    26.6994       27.60000
    26.9414       40.80000
    27.1834       41.90000
    27.4255       32.70000
    27.6675       33.70000
    27.9095       36.80000
    28.1515       31.70000
    28.3935       39.80000
    28.6356       41.90000
    28.8776       30.60000
    29.1196       48.00000
    29.3616       55.10000
    29.6036      299.2
    29.8457     1182.6
    30.0877      110.3
    30.3297       53.10000
    30.5717       41.90000
    30.8137       38.80000
    31.0558       25.50000
    31.2978       36.80000
    31.5398       30.60000
    31.7818       27.60000
    32.0238       85.80000
    32.2659      588.2
    32.5079       56.20000
    32.7499       39.80000
    32.9919       16.30000
    33.2340       22.50000
    33.4760       30.60000
    33.7180       24.50000
    33.9600       27.60000
    34.2020       19.40000
    34.4441       38.80000
    34.6861       60.30000
    34.9281       40.80000
    35.1701       46.00000
    35.4121      209.4
    35.6542     1667.7
    35.8962      188.9
    36.1382       61.30000
    36.3802      114.4
    36.6222      563.7
    36.8643       86.80000
    37.1063       33.70000
    37.3483       40.80000
    37.5903       55.10000
    37.8323      166.5
    38.0744      131.7
    38.3164       54.10000
    38.5584       26.60000
    38.8004       30.60000
    39.0424       36.80000
    39.2845      174.6
    39.5265      137.9
    39.7685      461.6
    40.0105      100.1
    40.2525       30.60000
    40.4946       30.60000
    40.7366       25.50000
    40.9786       17.40000
    41.2206       22.50000
    41.4626       15.30000
    41.7047       20.40000
    41.9467       42.90000
    42.1887      227.7
    42.4307      102.1
    42.6727       34.70000
    42.9148       20.40000
    43.1568       24.50000
    43.3988       23.50000
    43.6408       22.50000
    43.8828       21.40000
    44.1249       26.60000
    44.3669       74.60000
    44.6089       51.10000
    44.8509       42.90000
    45.0929       71.50000
    45.3350       22.50000
    45.5770       16.30000
    45.8190       19.40000
    46.0610       20.40000
    46.3030       46.00000
    46.5451       28.60000
    46.7871       20.40000
    47.0291       22.50000
    47.2711       14.30000
    47.5131       20.40000
    47.7552       15.30000
    47.9972       21.40000
    48.2392       24.50000
    48.4812       20.40000
    48.7233       29.60000
    48.9653       39.80000
    49.2073      138.9
    49.4493       97.00000
    49.6913       33.70000
    49.9334       44.90000
    50.1754      102.1
    50.4174      223.7
    50.6594      155.2
    50.9014       35.70000
    51.1435       24.50000
    51.3855       24.50000
    51.6275        9.20000
    51.8695       27.60000
    52.1115       32.70000
    52.3536      118.5
    52.5956      569.9
    52.8376      211.4
    53.0796       57.20000
    53.3216       36.80000
    53.5637       22.50000
    53.8057       24.50000
    54.0477       20.40000
    54.2897       28.60000
    54.5317       27.60000
    54.7738       52.10000
    55.0158      246.1
    55.2578       83.70000
    55.4998      274.7
    55.7418       86.80000
    55.9839       31.70000
    56.2259       47.00000
    56.4679       84.80000
    56.7099      279.8
    56.9519      100.1
    57.1940       42.90000
    57.4360       28.60000
    57.6780       44.90000
    57.9200       32.70000
    58.1620       82.70000
    58.4041      152.2
    58.6461       43.90000
    58.8881       32.70000
    59.1301       26.60000
    59.3721       18.40000
    59.6142       28.60000
    59.8562       17.40000
    60.0982       12.30000
    60.3402       21.40000
    60.5822       17.40000
    60.8243       26.60000
    61.0663       23.50000
    61.3083       50.00000
    61.5503       99.10000
    61.7923      314.5
    62.0344      293.1
    62.2764      142
    62.5184       43.90000
    62.7604       36.80000
    63.0025       13.30000
    63.2445       21.40000
    63.4865       18.40000
    63.7285       23.50000
    63.9705       70.50000
    64.2126       27.60000
    64.4546       17.40000
    64.6966       23.50000
    64.9386       12.30000
    65.1806       18.40000
    65.4227       31.70000
    65.6647       30.60000
    65.9067       36.80000
    66.1487       52.10000
    66.3907      101.1
    66.6328       37.80000
    66.8748       27.60000
    67.1168       35.70000
    67.3588       59.20000
    67.6008       79.70000
    67.8429       33.70000
    68.0849       34.70000
    68.3269       35.70000
    68.5689       17.40000
    68.8109       21.40000
    69.0530       31.70000
    69.2950       38.80000
    69.5370       41.90000
    69.7790       29.60000
    70.0210       77.60001
    70.2631      130.7
    70.5051       43.90000
    70.7471       23.50000
    70.9891       24.50000
    71.2311       29.60000
    71.4732       46.00000
    71.7152       38.80000
    71.9572       56.20000
    72.1992       99.10000
    72.4412      138.9
    72.6833       48.00000
    72.9253       25.50000
    73.1673       26.60000
    73.4093       51.10000
    73.6513       41.90000
    73.8934       32.70000
    74.1354       35.70000
    74.3774       91.90000
    74.6194       56.20000
    74.8614       32.70000
    75.1035       36.80000
    75.3455       31.70000
    75.5875       25.50000
    75.8295       27.60000
    76.0715       35.70000
    76.3136       33.70000
    76.5556       18.40000
    76.7976       17.40000
    77.0396       21.40000
    77.2816       24.50000
    77.5237       32.70000
    77.7657       69.40000
    78.0077       65.40000
    78.2497       29.60000
    78.4918       28.60000
    78.7338       15.30000
    78.9758       25.50000
    79.2178       15.30000
    79.4598       14.30000
    79.7019       15.30000
    79.9439       24.50000
    80.0070       28.60000